trials.label,trials.startVal,trials.stepSizes,trials.maxVal,trials.minVal,trials.thisIndex,trials.thisRepN,trials.thisN,trials.direction,trials.stepSize,trials.stepType,trials.intensity,ISI.started,grating.started,key_resp.started,grating.stopped,trials.response,key_resp.corr,participant,session,date,expName,psychopyVersion,frameRate,
cont,0.05,"(0.01, 0.01, 0.005, 0.005)",1,0,0,1,0,start,0.01,db,0.05,0.8403535000106785,19.50274530000752,19.50274530000752,19.802651100006187,1,1,784320,001,2022-09-09_07h31.09.386,untitled_1,2022.2.4,60.00438031819,
cont,0.05,"(0.01, 0.01, 0.005, 0.005)",1,0,0,2,1,down,0.01,db,0.04994246849682526,0.0006297999934758991,22.037376399995992,22.037376399995992,22.352501899993513,1,1,784320,001,2022-09-09_07h31.09.386,untitled_1,2022.2.4,60.00438031819,
cont,0.05,"(0.01, 0.01, 0.005, 0.005)",1,0,0,3,2,down,0.01,db,0.049885003191127666,0.0007295999967027456,24.602745600015623,24.602745600015623,24.90237240001443,1,1,784320,001,2022-09-09_07h31.09.386,untitled_1,2022.2.4,60.00438031819,
cont,0.05,"(0.01, 0.01, 0.005, 0.005)",1,0,0,4,3,down,0.01,db,0.04982760400673841,0.0007317000126931816,27.002350199996727,27.002350199996727,27.302030399994692,1,1,784320,001,2022-09-09_07h31.09.386,untitled_1,2022.2.4,60.00438031819,
cont,0.05,"(0.01, 0.01, 0.005, 0.005)",1,0,0,5,4,down,0.01,db,0.04977027086757634,0.0005443999834824353,29.568760599999223,29.568760599999223,29.86862470000051,1,1,784320,001,2022-09-09_07h31.09.386,untitled_1,2022.2.4,60.00438031819,
cont,0.05,"(0.01, 0.01, 0.005, 0.005)",1,0,0,6,5,down,0.01,db,0.04971300369764783,0.0007238000107463449,31.935180100001162,31.935180100001162,32.23538329999428,1,1,784320,001,2022-09-09_07h31.09.386,untitled_1,2022.2.4,60.00438031819,
cont,0.05,"(0.01, 0.01, 0.005, 0.005)",1,0,0,7,6,down,0.01,db,0.04965580242104668,0.0007232999778352678,34.351831900014076,34.351831900014076,34.65177900000708,1,1,784320,001,2022-09-09_07h31.09.386,untitled_1,2022.2.4,60.00438031819,
cont,0.05,"(0.01, 0.01, 0.005, 0.005)",1,0,0,8,7,down,0.01,db,0.049598666961954065,0.0007206999871414155,36.78542470000684,36.78542470000684,37.08486980001908,1,1,784320,001,2022-09-09_07h31.09.386,untitled_1,2022.2.4,60.00438031819,
cont,0.05,"(0.01, 0.01, 0.005, 0.005)",1,0,0,9,8,down,0.01,db,0.04954159724463837,0.000728700018953532,39.10193319999962,39.10193319999962,39.40136970000458,1,1,784320,001,2022-09-09_07h31.09.386,untitled_1,2022.2.4,60.00438031819,
cont,0.05,"(0.01, 0.01, 0.005, 0.005)",1,0,0,10,9,down,0.01,db,0.049484593193455134,0.0007176999934017658,41.46790720001445,41.46790720001445,41.76798930001678,1,1,784320,001,2022-09-09_07h31.09.386,untitled_1,2022.2.4,60.00438031819,
cont,0.05,"(0.01, 0.01, 0.005, 0.005)",1,0,0,11,10,down,0.01,db,0.04942765473284693,0.0007209999894257635,43.850955100002466,43.850955100002466,44.15094290001434,1,1,784320,001,2022-09-09_07h31.09.386,untitled_1,2022.2.4,60.00438031819,
cont,0.05,"(0.01, 0.01, 0.005, 0.005)",1,0,0,12,11,down,0.01,db,0.04937078178734327,0.0006356000085361302,46.28426879999461,46.28426879999461,46.584130700008245,1,1,784320,001,2022-09-09_07h31.09.386,untitled_1,2022.2.4,60.00438031819,
cont,0.05,"(0.01, 0.01, 0.005, 0.005)",1,0,0,13,12,down,0.01,db,0.04931397428156051,0.0006291000172495842,48.617333800008055,48.617333800008055,48.91770370001905,1,1,784320,001,2022-09-09_07h31.09.386,untitled_1,2022.2.4,60.00438031819,
cont,0.05,"(0.01, 0.01, 0.005, 0.005)",1,0,0,14,13,down,0.01,db,0.04925723214020173,0.0006272000027820468,50.967173700017156,50.967173700017156,51.26723100000527,1,1,784320,001,2022-09-09_07h31.09.386,untitled_1,2022.2.4,60.00438031819,
cont,0.05,"(0.01, 0.01, 0.005, 0.005)",1,0,0,15,14,down,0.01,db,0.04920055528805667,0.0006293999904301018,53.3003691000049,53.3003691000049,53.60041330000968,1,1,784320,001,2022-09-09_07h31.09.386,untitled_1,2022.2.4,60.00438031819,
cont,0.05,"(0.01, 0.01, 0.005, 0.005)",1,0,0,16,15,down,0.01,db,0.04914394365000159,0.0006308000010903925,55.616992900002515,55.616992900002515,55.91700139999739,1,1,784320,001,2022-09-09_07h31.09.386,untitled_1,2022.2.4,60.00438031819,
cont,0.05,"(0.01, 0.01, 0.005, 0.005)",1,0,0,17,16,down,0.01,db,0.0490873971509992,0.0007252000214066356,57.91672189999372,57.91672189999372,58.233080400008475,1,1,784320,001,2022-09-09_07h31.09.386,untitled_1,2022.2.4,60.00438031819,
cont,0.05,"(0.01, 0.01, 0.005, 0.005)",1,0,0,18,17,down,0.01,db,0.04903091571609854,0.0006331000186037272,60.28327960000024,60.28327960000024,,1,1,784320,001,2022-09-09_07h31.09.386,untitled_1,2022.2.4,60.00438031819,
cont,0.05,"(0.01, 0.01, 0.005, 0.005)",1,0,0,19,18,down,0.01,db,0.048974499270434915,0.001034899993101135,62.566539999999804,62.566539999999804,62.866912800003774,1,1,784320,001,2022-09-09_07h31.09.386,untitled_1,2022.2.4,60.00438031819,
cont,0.05,"(0.01, 0.01, 0.005, 0.005)",1,0,0,20,19,down,0.01,db,0.04891814773922974,0.0007251999923028052,64.8831579000107,64.8831579000107,65.18294289999176,1,1,784320,001,2022-09-09_07h31.09.386,untitled_1,2022.2.4,60.00438031819,
cont,0.05,"(0.01, 0.01, 0.005, 0.005)",1,0,0,21,20,down,0.01,db,0.0488618610477905,0.0007216999947559088,67.18270609999308,67.18270609999308,,1,1,784320,001,2022-09-09_07h31.09.386,untitled_1,2022.2.4,60.00438031819,
cont,0.05,"(0.01, 0.01, 0.005, 0.005)",1,0,0,22,21,down,0.01,db,0.048805639121510605,0.00082230000407435,69.46596520001185,69.46596520001185,69.76595329999691,1,1,784320,001,2022-09-09_07h31.09.386,untitled_1,2022.2.4,60.00438031819,
cont,0.05,"(0.01, 0.01, 0.005, 0.005)",1,0,0,23,22,down,0.01,db,0.04874948188586931,0.0007171999895945191,71.7825218999933,71.7825218999933,72.0827003000013,1,1,784320,001,2022-09-09_07h31.09.386,untitled_1,2022.2.4,60.00438031819,
cont,0.05,"(0.01, 0.01, 0.005, 0.005)",1,0,0,24,23,down,0.01,db,0.04869338926643163,0.0007408999954350293,74.09899260001839,74.09899260001839,74.39893379999558,1,1,784320,001,2022-09-09_07h31.09.386,untitled_1,2022.2.4,60.00438031819,
cont,0.05,"(0.01, 0.01, 0.005, 0.005)",1,0,0,25,24,down,0.01,db,0.04863736118884821,0.0007267999753821641,76.48220500000753,76.48220500000753,76.78205650000018,1,1,784320,001,2022-09-09_07h31.09.386,untitled_1,2022.2.4,60.00438031819,
cont,0.05,"(0.01, 0.01, 0.005, 0.005)",1,0,0,26,25,down,0.01,db,0.04858139757885526,0.0007233000069390982,78.78203780000331,78.78203780000331,79.08222810001462,1,1,784320,001,2022-09-09_07h31.09.386,untitled_1,2022.2.4,60.00438031819,
cont,0.05,"(0.01, 0.01, 0.005, 0.005)",1,0,0,27,26,down,0.01,db,0.04852549836227443,0.0007236000092234462,81.13185450001038,81.13185450001038,,1,1,784320,001,2022-09-09_07h31.09.386,untitled_1,2022.2.4,60.00438031819,
cont,0.05,"(0.01, 0.01, 0.005, 0.005)",1,0,0,28,27,down,0.01,db,0.048469663465012726,0.000764199998229742,83.39839980000397,83.39839980000397,,1,1,784320,001,2022-09-09_07h31.09.386,untitled_1,2022.2.4,60.00438031819,
cont,0.05,"(0.01, 0.01, 0.005, 0.005)",1,0,0,29,28,down,0.01,db,0.0484138928130624,0.0007164000126067549,85.68165350001073,85.68165350001073,85.9815171000082,1,1,784320,001,2022-09-09_07h31.09.386,untitled_1,2022.2.4,60.00438031819,
cont,0.05,"(0.01, 0.01, 0.005, 0.005)",1,0,0,30,29,down,0.01,db,0.04835818633250087,0.0007118000066839159,88.06479060000856,88.06479060000856,88.36450560000958,1,1,784320,001,2022-09-09_07h31.09.386,untitled_1,2022.2.4,60.00438031819,
cont,0.05,"(0.01, 0.01, 0.005, 0.005)",1,0,0,31,30,down,0.01,db,0.04830254394949061,0.0007119000074453652,90.36447510001017,90.36447510001017,90.66443950001849,1,1,784320,001,2022-09-09_07h31.09.386,untitled_1,2022.2.4,60.00438031819,
cont,0.05,"(0.01, 0.01, 0.005, 0.005)",1,0,0,32,31,down,0.01,db,0.04824696559027904,0.0007246999884955585,92.71434120001504,92.71434120001504,,1,1,784320,001,2022-09-09_07h31.09.386,untitled_1,2022.2.4,60.00438031819,
cont,0.05,"(0.01, 0.01, 0.005, 0.005)",1,0,0,33,32,down,0.01,db,0.048191451181198455,0.0009490000084042549,94.98085540000466,94.98085540000466,,1,1,784320,001,2022-09-09_07h31.09.386,untitled_1,2022.2.4,60.00438031819,
cont,0.05,"(0.01, 0.01, 0.005, 0.005)",1,0,0,34,33,down,0.01,db,0.04813600064866592,0.0007282999868039042,97.26402930001495,97.26402930001495,,1,1,784320,001,2022-09-09_07h31.09.386,untitled_1,2022.2.4,60.00438031819,
cont,0.05,"(0.01, 0.01, 0.005, 0.005)",1,0,0,35,34,down,0.01,db,0.048080613919183154,0.0007177999941632152,99.51366510000662,99.51366510000662,,1,1,784320,001,2022-09-09_07h31.09.386,untitled_1,2022.2.4,60.00438031819,
cont,0.05,"(0.01, 0.01, 0.005, 0.005)",1,0,0,36,35,down,0.01,db,0.04802529091933645,0.0007193000055849552,101.79730350000318,101.79730350000318,102.0970234000124,1,1,784320,001,2022-09-09_07h31.09.386,untitled_1,2022.2.4,60.00438031819,
cont,0.05,"(0.01, 0.01, 0.005, 0.005)",1,0,0,37,36,down,0.01,db,0.04797003157579657,0.0007190000033006072,104.19691530001,104.19691530001,104.49694929999532,1,1,784320,001,2022-09-09_07h31.09.386,untitled_1,2022.2.4,60.00438031819,
cont,0.05,"(0.01, 0.01, 0.005, 0.005)",1,0,0,38,37,down,0.01,db,0.04791483581531866,0.0007260999991558492,106.56330370000796,106.56330370000796,106.8632414000167,1,1,784320,001,2022-09-09_07h31.09.386,untitled_1,2022.2.4,60.00438031819,
cont,0.05,"(0.01, 0.01, 0.005, 0.005)",1,0,0,39,38,down,0.01,db,0.04785970356474213,0.0006428000051528215,108.92979379999451,108.92979379999451,109.22981859999709,1,1,784320,001,2022-09-09_07h31.09.386,untitled_1,2022.2.4,60.00438031819,
cont,0.05,"(0.01, 0.01, 0.005, 0.005)",1,0,0,40,39,down,0.01,db,0.04780463475099059,0.0007254999945871532,111.36302730001626,111.36302730001626,111.6629487000173,1,1,784320,001,2022-09-09_07h31.09.386,untitled_1,2022.2.4,60.00438031819,
cont,0.05,"(0.01, 0.01, 0.005, 0.005)",1,0,0,41,40,down,0.01,db,0.047749629301071704,0.0007215999939944595,113.7628146999923,113.7628146999923,114.06568279999192,1,1,784320,001,2022-09-09_07h31.09.386,untitled_1,2022.2.4,60.00438031819,
cont,0.05,"(0.01, 0.01, 0.005, 0.005)",1,0,0,42,41,down,0.01,db,0.047694687142077155,0.0007231000054161996,116.16263989999425,116.16263989999425,116.4626826000167,1,1,784320,001,2022-09-09_07h31.09.386,untitled_1,2022.2.4,60.00438031819,
cont,0.05,"(0.01, 0.01, 0.005, 0.005)",1,0,0,43,42,down,0.01,db,0.0476398082011825,0.0007245999877341092,118.52916850001202,118.52916850001202,118.82919150000089,1,1,784320,001,2022-09-09_07h31.09.386,untitled_1,2022.2.4,60.00438031819,
cont,0.05,"(0.01, 0.01, 0.005, 0.005)",1,0,0,44,43,down,0.01,db,0.047584992405647085,0.0007399000169243664,120.82914129999699,120.82914129999699,121.12901800000691,1,1,784320,001,2022-09-09_07h31.09.386,untitled_1,2022.2.4,60.00438031819,
cont,0.05,"(0.01, 0.01, 0.005, 0.005)",1,0,0,45,44,down,0.01,db,0.04753023968281397,0.0007164000126067549,123.22882210000535,123.22882210000535,123.5289330999949,1,1,784320,001,2022-09-09_07h31.09.386,untitled_1,2022.2.4,60.00438031819,
cont,0.05,"(0.01, 0.01, 0.005, 0.005)",1,0,0,46,45,down,0.01,db,0.0474755499601098,0.0007236000092234462,125.5786858999927,125.5786858999927,125.880614099995,1,1,784320,001,2022-09-09_07h31.09.386,untitled_1,2022.2.4,60.00438031819,
cont,0.05,"(0.01, 0.01, 0.005, 0.005)",1,0,0,47,46,down,0.01,db,0.047420923165044745,0.0007410999969579279,127.87853429999086,127.87853429999086,128.17851349999546,1,1,784320,001,2022-09-09_07h31.09.386,untitled_1,2022.2.4,60.00438031819,
cont,0.05,"(0.01, 0.01, 0.005, 0.005)",1,0,0,48,47,down,0.01,db,0.04736635922521236,0.0007206999871414155,130.27836270001717,130.27836270001717,130.57834609999554,1,1,784320,001,2022-09-09_07h31.09.386,untitled_1,2022.2.4,60.00438031819,
cont,0.05,"(0.01, 0.01, 0.005, 0.005)",1,0,0,49,48,down,0.01,db,0.04731185806828953,0.0007571999740321189,132.61181190001662,132.61181190001662,132.91150950000156,1,1,784320,001,2022-09-09_07h31.09.386,untitled_1,2022.2.4,60.00438031819,
cont,0.05,"(0.01, 0.01, 0.005, 0.005)",1,0,0,50,49,down,0.01,db,0.047257419622036355,0.000382099999114871,135.0113849999907,135.0113849999907,135.31125430000247,1,1,784320,001,2022-09-09_07h31.09.386,untitled_1,2022.2.4,60.00438031819,
cont,0.05,"(0.01, 0.01, 0.005, 0.005)",1,0,0,51,50,down,0.01,db,0.04720304381429605,0.0006347000016830862,137.32778950000647,137.32778950000647,137.62784400000237,1,1,784320,001,2022-09-09_07h31.09.386,untitled_1,2022.2.4,60.00438031819,
cont,0.05,"(0.01, 0.01, 0.005, 0.005)",1,0,0,52,51,down,0.01,db,0.04714873057299485,0.0007843000057619065,139.6276860999933,139.6276860999933,139.92771740001626,1,1,784320,001,2022-09-09_07h31.09.386,untitled_1,2022.2.4,60.00438031819,
cont,0.05,"(0.01, 0.01, 0.005, 0.005)",1,0,0,53,52,down,0.01,db,0.04709447982614194,0.0007323999889194965,141.94438279999304,141.94438279999304,142.24410090001766,1,1,784320,001,2022-09-09_07h31.09.386,untitled_1,2022.2.4,60.00438031819,
cont,0.05,"(0.01, 0.01, 0.005, 0.005)",1,0,0,54,53,down,0.01,db,0.047040291501829326,0.000727800012100488,144.3272794999939,144.3272794999939,144.62769369999296,1,1,784320,001,2022-09-09_07h31.09.386,untitled_1,2022.2.4,60.00438031819,
cont,0.05,"(0.01, 0.01, 0.005, 0.005)",1,0,0,55,54,down,0.01,db,0.04698616552823176,0.0006412999937310815,146.6273116999946,146.6273116999946,146.92717820001417,1,1,784320,001,2022-09-09_07h31.09.386,untitled_1,2022.2.4,60.00438031819,
cont,0.05,"(0.01, 0.01, 0.005, 0.005)",1,0,0,56,55,down,0.01,db,0.04693210183360663,0.0007326000195462257,148.99384889999055,148.99384889999055,149.29367459999048,1,1,784320,001,2022-09-09_07h31.09.386,untitled_1,2022.2.4,60.00438031819,
cont,0.05,"(0.01, 0.01, 0.005, 0.005)",1,0,0,57,56,down,0.01,db,0.04687810034629388,0.0007188000017777085,151.3771018999978,151.3771018999978,151.67688230000203,1,1,784320,001,2022-09-09_07h31.09.386,untitled_1,2022.2.4,60.00438031819,
cont,0.05,"(0.01, 0.01, 0.005, 0.005)",1,0,0,58,57,down,0.01,db,0.046824160994715903,0.0007275000098161399,153.7432524000178,153.7432524000178,154.04355910001323,1,1,784320,001,2022-09-09_07h31.09.386,untitled_1,2022.2.4,60.00438031819,
cont,0.05,"(0.01, 0.01, 0.005, 0.005)",1,0,0,59,58,down,0.01,db,0.04677028370737746,0.0006295999919530004,156.05993489999673,156.05993489999673,156.36016169999493,1,1,784320,001,2022-09-09_07h31.09.386,untitled_1,2022.2.4,60.00438031819,
cont,0.05,"(0.01, 0.01, 0.005, 0.005)",1,0,0,60,59,down,0.01,db,0.046716468412865565,0.0007188000017777085,158.5430435000162,158.5430435000162,,1,1,784320,001,2022-09-09_07h31.09.386,untitled_1,2022.2.4,60.00438031819,
cont,0.05,"(0.01, 0.01, 0.005, 0.005)",1,0,0,61,60,down,0.01,db,0.04666271503984941,0.0007251999923028052,160.82622690001153,160.82622690001153,161.12613560000318,1,1,784320,001,2022-09-09_07h31.09.386,untitled_1,2022.2.4,60.00438031819,
cont,0.05,"(0.01, 0.01, 0.005, 0.005)",1,0,0,62,61,down,0.01,db,0.04660902351708026,0.0006326999864540994,163.34282720001647,163.34282720001647,,1,1,784320,001,2022-09-09_07h31.09.386,untitled_1,2022.2.4,60.00438031819,
cont,0.05,"(0.01, 0.01, 0.005, 0.005)",1,0,0,63,62,down,0.01,db,0.046555393773391365,0.0006246999837458134,165.59254030001466,165.59254030001466,165.89252210000996,1,1,784320,001,2022-09-09_07h31.09.386,untitled_1,2022.2.4,60.00438031819,
cont,0.05,"(0.01, 0.01, 0.005, 0.005)",1,0,0,64,63,down,0.01,db,0.04650182573769786,0.0008736000163480639,167.9255858999968,167.9255858999968,168.22594589999062,1,1,784320,001,2022-09-09_07h31.09.386,untitled_1,2022.2.4,60.00438031819,
cont,0.05,"(0.01, 0.01, 0.005, 0.005)",1,0,0,65,64,down,0.01,db,0.04644831933899666,0.0007140999950934201,170.29229800001485,170.29229800001485,170.5922833000077,1,1,784320,001,2022-09-09_07h31.09.386,untitled_1,2022.2.4,60.00438031819,
cont,0.05,"(0.01, 0.01, 0.005, 0.005)",1,0,0,66,65,down,0.01,db,0.046394874506366396,0.0007288000197149813,172.67540949999238,172.67540949999238,172.97546220000368,1,1,784320,001,2022-09-09_07h31.09.386,untitled_1,2022.2.4,60.00438031819,
cont,0.05,"(0.01, 0.01, 0.005, 0.005)",1,0,0,67,66,down,0.01,db,0.0463414911689673,0.0007354999834205955,175.07520379999187,175.07520379999187,175.37513230001787,1,1,784320,001,2022-09-09_07h31.09.386,untitled_1,2022.2.4,60.00438031819,
cont,0.05,"(0.01, 0.01, 0.005, 0.005)",1,0,0,68,67,down,0.01,db,0.0462881692560411,0.0007214999932330102,177.52509529999224,177.52509529999224,177.82498579999083,1,1,784320,001,2022-09-09_07h31.09.386,untitled_1,2022.2.4,60.00438031819,
cont,0.05,"(0.01, 0.01, 0.005, 0.005)",1,0,0,69,68,down,0.01,db,0.04623490869691096,0.0007790000236127526,179.8915937000129,179.8915937000129,180.1915385000175,1,1,784320,001,2022-09-09_07h31.09.386,untitled_1,2022.2.4,60.00438031819,
cont,0.05,"(0.01, 0.01, 0.005, 0.005)",1,0,0,70,69,down,0.01,db,0.04618170942098135,0.0007584000122733414,182.25815850001527,182.25815850001527,182.5579868000059,1,1,784320,001,2022-09-09_07h31.09.386,untitled_1,2022.2.4,60.00438031819,
cont,0.05,"(0.01, 0.01, 0.005, 0.005)",1,0,0,71,70,down,0.01,db,0.04612857135773798,0.0007169000164140016,184.57454359999974,184.57454359999974,184.8746145000041,1,1,784320,001,2022-09-09_07h31.09.386,untitled_1,2022.2.4,60.00438031819,
cont,0.05,"(0.01, 0.01, 0.005, 0.005)",1,0,0,72,71,down,0.01,db,0.046075494436747695,0.0007237000099848956,186.957702899992,186.957702899992,187.2575785999943,1,1,784320,001,2022-09-09_07h31.09.386,untitled_1,2022.2.4,60.00438031819,
cont,0.05,"(0.01, 0.01, 0.005, 0.005)",1,0,0,73,72,down,0.01,db,0.04602247858765838,0.0006349000032059848,189.35761160001857,189.35761160001857,189.6577971999941,1,1,784320,001,2022-09-09_07h31.09.386,untitled_1,2022.2.4,60.00438031819,
cont,0.05,"(0.01, 0.01, 0.005, 0.005)",1,0,0,74,73,down,0.01,db,0.045969523740198866,0.0007098999922163785,191.84067900001537,191.84067900001537,192.14132270001573,1,1,784320,001,2022-09-09_07h31.09.386,untitled_1,2022.2.4,60.00438031819,
cont,0.05,"(0.01, 0.01, 0.005, 0.005)",1,0,0,75,74,down,0.01,db,0.04591662982417885,0.0006302999972831458,194.14067950000754,194.14067950000754,194.44082809999236,1,1,784320,001,2022-09-09_07h31.09.386,untitled_1,2022.2.4,60.00438031819,
cont,0.05,"(0.01, 0.01, 0.005, 0.005)",1,0,0,76,75,down,0.01,db,0.045863796769488784,0.0007273000082932413,196.47369310000795,196.47369310000795,196.7736603000085,1,1,784320,001,2022-09-09_07h31.09.386,untitled_1,2022.2.4,60.00438031819,
cont,0.05,"(0.01, 0.01, 0.005, 0.005)",1,0,0,77,76,down,0.01,db,0.045811024506099786,0.0007351999811362475,198.84032640000805,198.84032640000805,199.14022610001848,1,1,784320,001,2022-09-09_07h31.09.386,untitled_1,2022.2.4,60.00438031819,
cont,0.05,"(0.01, 0.01, 0.005, 0.005)",1,0,0,78,77,down,0.01,db,0.04575831296406357,0.0007336999988183379,201.15672910001012,201.15672910001012,201.4568954000133,1,1,784320,001,2022-09-09_07h31.09.386,untitled_1,2022.2.4,60.00438031819,
cont,0.05,"(0.01, 0.01, 0.005, 0.005)",1,0,0,79,78,down,0.01,db,0.04570566207351231,0.0007194000063464046,203.4899790000054,203.4899790000054,203.7899929000123,1,1,784320,001,2022-09-09_07h31.09.386,untitled_1,2022.2.4,60.00438031819,
cont,0.05,"(0.01, 0.01, 0.005, 0.005)",1,0,0,80,79,down,0.01,db,0.04565307176465858,0.0007613000052515417,205.83973890001653,205.83973890001653,,1,1,784320,001,2022-09-09_07h31.09.386,untitled_1,2022.2.4,60.00438031819,
cont,0.05,"(0.01, 0.01, 0.005, 0.005)",1,0,0,81,80,down,0.01,db,0.045600541967795276,0.0007156000065151602,208.12286870001117,208.12286870001117,208.4228737000085,1,1,784320,001,2022-09-09_07h31.09.386,untitled_1,2022.2.4,60.00438031819,
cont,0.05,"(0.01, 0.01, 0.005, 0.005)",1,0,0,82,81,down,0.01,db,0.04554807261329547,0.0007192000048235059,210.52375270001357,210.52375270001357,210.83947160001844,1,1,784320,001,2022-09-09_07h31.09.386,untitled_1,2022.2.4,60.00438031819,
cont,0.05,"(0.01, 0.01, 0.005, 0.005)",1,0,0,83,82,down,0.01,db,0.045495663631612365,0.0006355000077746809,213.02289359999122,213.02289359999122,213.32256639999105,1,1,784320,001,2022-09-09_07h31.09.386,untitled_1,2022.2.4,60.00438031819,
cont,0.05,"(0.01, 0.01, 0.005, 0.005)",1,0,0,84,83,down,0.01,db,0.04544331495327918,0.0007113000028766692,215.33937050000532,215.33937050000532,215.63912599999458,1,1,784320,001,2022-09-09_07h31.09.386,untitled_1,2022.2.4,60.00438031819,
cont,0.05,"(0.01, 0.01, 0.005, 0.005)",1,0,0,85,84,down,0.01,db,0.045391026508909076,0.0007268000044859946,217.7056530000118,217.7056530000118,218.00563420000253,1,1,784320,001,2022-09-09_07h31.09.386,untitled_1,2022.2.4,60.00438031819,
cont,0.05,"(0.01, 0.01, 0.005, 0.005)",1,0,0,86,85,down,0.01,db,0.04533879822919503,0.0007291000219993293,220.05548529999214,220.05548529999214,220.35546429999522,1,1,784320,001,2022-09-09_07h31.09.386,untitled_1,2022.2.4,60.00438031819,
cont,0.05,"(0.01, 0.01, 0.005, 0.005)",1,0,0,87,86,down,0.01,db,0.04528663004490979,0.0007248999900184572,222.3885803000012,222.3885803000012,222.68844450000324,1,1,784320,001,2022-09-09_07h31.09.386,untitled_1,2022.2.4,60.00438031819,
cont,0.05,"(0.01, 0.01, 0.005, 0.005)",1,0,0,88,87,down,0.01,db,0.04523452188690575,0.0007299999997485429,224.92180030001327,224.92180030001327,225.22179710000637,1,1,784320,001,2022-09-09_07h31.09.386,untitled_1,2022.2.4,60.00438031819,
cont,0.05,"(0.01, 0.01, 0.005, 0.005)",1,0,0,89,88,down,0.01,db,0.04518247368611486,0.0007290999928954989,227.27143880000222,227.27143880000222,,1,1,784320,001,2022-09-09_07h31.09.386,untitled_1,2022.2.4,60.00438031819,
cont,0.05,"(0.01, 0.01, 0.005, 0.005)",1,0,0,90,89,down,0.01,db,0.04513048537354855,0.0006333999917842448,229.55467959999805,229.55467959999805,229.85459229999105,1,1,784320,001,2022-09-09_07h31.09.386,untitled_1,2022.2.4,60.00438031819,
cont,0.05,"(0.01, 0.01, 0.005, 0.005)",1,0,0,91,90,down,0.01,db,0.04507855688029763,0.0006446999905165285,232.271149600012,232.271149600012,232.57154580001952,1,1,784320,001,2022-09-09_07h31.09.386,untitled_1,2022.2.4,60.00438031819,
cont,0.05,"(0.01, 0.01, 0.005, 0.005)",1,0,0,92,91,down,0.01,db,0.045026688137532196,0.0007255999953486025,234.62096840000595,234.62096840000595,234.9210299999977,1,1,784320,001,2022-09-09_07h31.09.386,untitled_1,2022.2.4,60.00438031819,
cont,0.05,"(0.01, 0.01, 0.005, 0.005)",1,0,0,93,92,down,0.01,db,0.044974879076501544,0.0006260999944061041,237.02066929999273,237.02066929999273,237.32071100000758,1,1,784320,001,2022-09-09_07h31.09.386,untitled_1,2022.2.4,60.00438031819,
cont,0.05,"(0.01, 0.01, 0.005, 0.005)",1,0,0,94,93,down,0.01,db,0.04492312962853407,0.0006366999878082424,239.33742910000728,239.33742910000728,239.63732979999622,1,1,784320,001,2022-09-09_07h31.09.386,untitled_1,2022.2.4,60.00438031819,
cont,0.05,"(0.01, 0.01, 0.005, 0.005)",1,0,0,95,94,down,0.01,db,0.0448714397250372,0.0006377000245265663,241.82039850001456,241.82039850001456,242.12039510000614,1,1,784320,001,2022-09-09_07h31.09.386,untitled_1,2022.2.4,60.00438031819,
cont,0.05,"(0.01, 0.01, 0.005, 0.005)",1,0,0,96,95,down,0.01,db,0.04481980929749727,0.0006351000047288835,244.23694060000707,244.23694060000707,244.53699419999612,1,1,784320,001,2022-09-09_07h31.09.386,untitled_1,2022.2.4,60.00438031819,
cont,0.05,"(0.01, 0.01, 0.005, 0.005)",1,0,0,97,96,down,0.01,db,0.044768238277479465,0.0007224000000860542,246.6200638000155,246.6200638000155,246.92020630001207,1,1,784320,001,2022-09-09_07h31.09.386,untitled_1,2022.2.4,60.00438031819,
cont,0.05,"(0.01, 0.01, 0.005, 0.005)",1,0,0,98,97,down,0.01,db,0.04471672659662769,0.0007884000078774989,248.91995790001238,248.91995790001238,249.22008769999957,1,1,784320,001,2022-09-09_07h31.09.386,untitled_1,2022.2.4,60.00438031819,
cont,0.05,"(0.01, 0.01, 0.005, 0.005)",1,0,0,99,98,down,0.01,db,0.04466527418666453,0.0007166999857872725,251.52217720000772,251.52217720000772,251.83658309999737,1,1,784320,001,2022-09-09_07h31.09.386,untitled_1,2022.2.4,60.00438031819,
cont,0.05,"(0.01, 0.01, 0.005, 0.005)",1,0,0,100,99,down,0.01,db,0.04461388097939111,0.0006354000070132315,254.1197225000069,254.1197225000069,254.4195977000054,1,1,784320,001,2022-09-09_07h31.09.386,untitled_1,2022.2.4,60.00438031819,
cont,0.05,"(0.01, 0.01, 0.005, 0.005)",1,0,0,101,100,down,0.01,db,0.04456254690668704,0.0007233000069390982,256.5362155000039,256.5362155000039,256.8362919999927,1,1,784320,001,2022-09-09_07h31.09.386,untitled_1,2022.2.4,60.00438031819,
cont,0.05,"(0.01, 0.01, 0.005, 0.005)",1,0,0,102,101,down,0.01,db,0.0445112719005103,0.0007256999961100519,258.952598200005,258.952598200005,259.2526163000148,1,1,784320,001,2022-09-09_07h31.09.386,untitled_1,2022.2.4,60.00438031819,
cont,0.05,"(0.01, 0.01, 0.005, 0.005)",1,0,0,103,102,down,0.01,db,0.04446005589289718,0.0007936999900266528,261.3024781999993,261.3024781999993,261.60244700001203,1,1,784320,001,2022-09-09_07h31.09.386,untitled_1,2022.2.4,60.00438031819,
cont,0.05,"(0.01, 0.01, 0.005, 0.005)",1,0,0,104,103,down,0.01,db,0.04440889881596215,0.0007237000099848956,263.6523217000067,263.6523217000067,263.9523554999905,1,1,784320,001,2022-09-09_07h31.09.386,untitled_1,2022.2.4,60.00438031819,
cont,0.05,"(0.01, 0.01, 0.005, 0.005)",1,0,0,105,104,down,0.01,db,0.0443578006018978,0.0007200999825727195,265.9854586000147,265.9854586000147,266.28543940000236,1,1,784320,001,2022-09-09_07h31.09.386,untitled_1,2022.2.4,60.00438031819,
cont,0.05,"(0.01, 0.01, 0.005, 0.005)",1,0,0,106,105,down,0.01,db,0.04430676118297474,0.0007221999985631555,268.2852915000112,268.2852915000112,268.5852540000051,1,1,784320,001,2022-09-09_07h31.09.386,untitled_1,2022.2.4,60.00438031819,
cont,0.05,"(0.01, 0.01, 0.005, 0.005)",1,0,0,107,106,down,0.01,db,0.04425578049154152,0.0007246999884955585,270.6851591000159,270.6851591000159,270.9850088999956,1,1,784320,001,2022-09-09_07h31.09.386,untitled_1,2022.2.4,60.00438031819,
cont,0.05,"(0.01, 0.01, 0.005, 0.005)",1,0,0,108,107,down,0.01,db,0.04420485846002452,0.00041909998981282115,273.0853616000095,273.0853616000095,273.3849341000023,1,1,784320,001,2022-09-09_07h31.09.386,untitled_1,2022.2.4,60.00438031819,
cont,0.05,"(0.01, 0.01, 0.005, 0.005)",1,0,0,109,108,down,0.01,db,0.04415399502092788,0.0007232000061776489,275.4513777999964,275.4513777999964,275.75163630000316,1,1,784320,001,2022-09-09_07h31.09.386,untitled_1,2022.2.4,60.00438031819,
cont,0.05,"(0.01, 0.01, 0.005, 0.005)",1,0,0,110,109,down,0.01,db,0.0441031901068334,0.0006351000047288835,277.78488130000187,277.78488130000187,278.08482610000647,1,1,784320,001,2022-09-09_07h31.09.386,untitled_1,2022.2.4,60.00438031819,
cont,0.05,"(0.01, 0.01, 0.005, 0.005)",1,0,0,111,110,down,0.01,db,0.044052443650400445,0.0007122000097297132,280.1846341000055,280.1846341000055,280.484629100014,1,1,784320,001,2022-09-09_07h31.09.386,untitled_1,2022.2.4,60.00438031819,
cont,0.05,"(0.01, 0.01, 0.005, 0.005)",1,0,0,112,111,down,0.01,db,0.04400175558436588,0.0007183999987319112,282.58429140000953,282.58429140000953,282.8843225000019,1,1,784320,001,2022-09-09_07h31.09.386,untitled_1,2022.2.4,60.00438031819,
cont,0.05,"(0.01, 0.01, 0.005, 0.005)",1,0,0,113,112,down,0.01,db,0.04395112584154395,0.0007209000177681446,284.9176342000137,284.9176342000137,285.21743479999714,1,1,784320,001,2022-09-09_07h31.09.386,untitled_1,2022.2.4,60.00438031819,
cont,0.05,"(0.01, 0.01, 0.005, 0.005)",1,0,0,114,113,down,0.01,db,0.043900554354826225,0.0007171999895945191,287.2506975000142,287.2506975000142,287.55063620000146,1,1,784320,001,2022-09-09_07h31.09.386,untitled_1,2022.2.4,60.00438031819,
cont,0.05,"(0.01, 0.01, 0.005, 0.005)",1,0,0,115,114,down,0.01,db,0.04385004105718147,0.0007228999747894704,289.5838323000062,289.5838323000062,289.8837763000047,1,1,784320,001,2022-09-09_07h31.09.386,untitled_1,2022.2.4,60.00438031819,
cont,0.05,"(0.01, 0.01, 0.005, 0.005)",1,0,0,116,115,down,0.01,db,0.04379958588165559,0.0006273000035434961,291.96694780001417,291.96694780001417,292.26686440000776,1,1,784320,001,2022-09-09_07h31.09.386,untitled_1,2022.2.4,60.00438031819,
cont,0.05,"(0.01, 0.01, 0.005, 0.005)",1,0,0,117,116,down,0.01,db,0.04374918876137153,0.0006455999973695725,294.3168469000084,294.3168469000084,,1,1,784320,001,2022-09-09_07h31.09.386,untitled_1,2022.2.4,60.00438031819,
cont,0.05,"(0.01, 0.01, 0.005, 0.005)",1,0,0,118,117,down,0.01,db,0.043698849629529184,0.0007351999811362475,296.60000249999575,296.60000249999575,296.8999567000137,1,1,784320,001,2022-09-09_07h31.09.386,untitled_1,2022.2.4,60.00438031819,
cont,0.05,"(0.01, 0.01, 0.005, 0.005)",1,0,0,119,118,down,0.01,db,0.0436485684194053,0.0007230999763123691,298.89997110000695,298.89997110000695,299.19990939999116,1,1,784320,001,2022-09-09_07h31.09.386,untitled_1,2022.2.4,60.00438031819,
cont,0.05,"(0.01, 0.01, 0.005, 0.005)",1,0,0,120,119,down,0.01,db,0.04359834506435342,0.0007357999857049435,301.23298780000187,301.23298780000187,301.5333341000078,1,1,784320,001,2022-09-09_07h31.09.386,untitled_1,2022.2.4,60.00438031819,
cont,0.05,"(0.01, 0.01, 0.005, 0.005)",1,0,0,121,120,down,0.01,db,0.04354817949780375,0.0007210999901872128,303.5661822000111,303.5661822000111,303.8661326000001,1,1,784320,001,2022-09-09_07h31.09.386,untitled_1,2022.2.4,60.00438031819,
cont,0.05,"(0.01, 0.01, 0.005, 0.005)",1,0,0,122,121,down,0.01,db,0.0434980716532631,0.0008719000034034252,305.9003648000071,305.9003648000071,306.2160683000111,1,1,784320,001,2022-09-09_07h31.09.386,untitled_1,2022.2.4,60.00438031819,
cont,0.05,"(0.01, 0.01, 0.005, 0.005)",1,0,0,123,122,down,0.01,db,0.043448021464314805,0.0006320000102277845,308.2159781999944,308.2159781999944,308.51596330001485,1,1,784320,001,2022-09-09_07h31.09.386,untitled_1,2022.2.4,60.00438031819,
cont,0.05,"(0.01, 0.01, 0.005, 0.005)",1,0,0,124,123,down,0.01,db,0.04339802886461859,0.000724400015315041,310.7656845000165,310.7656845000165,311.06599790000473,1,1,784320,001,2022-09-09_07h31.09.386,untitled_1,2022.2.4,60.00438031819,
cont,0.05,"(0.01, 0.01, 0.005, 0.005)",1,0,0,125,124,down,0.01,db,0.04334809378791054,0.0007151999743655324,313.1487593000056,313.1487593000056,313.44887170000584,1,1,784320,001,2022-09-09_07h31.09.386,untitled_1,2022.2.4,60.00438031819,
cont,0.05,"(0.01, 0.01, 0.005, 0.005)",1,0,0,126,125,down,0.01,db,0.04329821616800297,0.0007237999816425145,315.4987985000189,315.4987985000189,,1,1,784320,001,2022-09-09_07h31.09.386,untitled_1,2022.2.4,60.00438031819,
cont,0.05,"(0.01, 0.01, 0.005, 0.005)",1,0,0,127,126,down,0.01,db,0.043248395938784365,0.0007256999961100519,317.7819681999972,317.7819681999972,318.0818964999926,1,1,784320,001,2022-09-09_07h31.09.386,untitled_1,2022.2.4,60.00438031819,
cont,0.05,"(0.01, 0.01, 0.005, 0.005)",1,0,0,128,127,down,0.01,db,0.043198633034219266,0.0007277000113390386,320.08363030001055,320.08363030001055,320.3987017000036,1,1,784320,001,2022-09-09_07h31.09.386,untitled_1,2022.2.4,60.00438031819,
cont,0.05,"(0.01, 0.01, 0.005, 0.005)",1,0,0,129,128,down,0.01,db,0.04314892738834821,0.000733000022592023,322.49835130001884,322.49835130001884,322.79815790001885,1,1,784320,001,2022-09-09_07h31.09.386,untitled_1,2022.2.4,60.00438031819,
cont,0.05,"(0.01, 0.01, 0.005, 0.005)",1,0,0,130,129,down,0.01,db,0.043099278935287616,0.0007280000136233866,324.8981865000096,324.8981865000096,325.1980831999972,1,1,784320,001,2022-09-09_07h31.09.386,untitled_1,2022.2.4,60.00438031819,
cont,0.05,"(0.01, 0.01, 0.005, 0.005)",1,0,0,131,130,down,0.01,db,0.04304968760922972,0.0007157000072766095,327.2978119000036,327.2978119000036,327.5980261999939,1,1,784320,001,2022-09-09_07h31.09.386,untitled_1,2022.2.4,60.00438031819,
cont,0.05,"(0.01, 0.01, 0.005, 0.005)",1,0,0,132,131,down,0.01,db,0.043000153344442474,0.0007213999924715608,329.6170512000099,329.6170512000099,,1,1,784320,001,2022-09-09_07h31.09.386,untitled_1,2022.2.4,60.00438031819,
cont,0.05,"(0.01, 0.01, 0.005, 0.005)",1,0,0,133,132,down,0.01,db,0.042950676075269464,0.0007789000228513032,331.91418469999917,331.91418469999917,332.2141327999998,1,1,784320,001,2022-09-09_07h31.09.386,untitled_1,2022.2.4,60.00438031819,
cont,0.05,"(0.01, 0.01, 0.005, 0.005)",1,0,0,134,133,down,0.01,db,0.04290125573612983,0.0006206000107340515,334.26413690001937,334.26413690001937,334.56413630000316,1,1,784320,001,2022-09-09_07h31.09.386,untitled_1,2022.2.4,60.00438031819,
cont,0.05,"(0.01, 0.01, 0.005, 0.005)",1,0,0,135,134,down,0.01,db,0.04285189226151816,0.0007160999812185764,336.563853700005,336.563853700005,336.86404069999116,1,1,784320,001,2022-09-09_07h31.09.386,untitled_1,2022.2.4,60.00438031819,
cont,0.05,"(0.01, 0.01, 0.005, 0.005)",1,0,0,136,135,down,0.01,db,0.04280258558600441,0.0006304000271484256,338.8971200000087,338.8971200000087,339.1970314999926,1,1,784320,001,2022-09-09_07h31.09.386,untitled_1,2022.2.4,60.00438031819,
cont,0.05,"(0.01, 0.01, 0.005, 0.005)",1,0,0,137,136,down,0.01,db,0.042753335644233836,0.0007246000168379396,341.28010160001577,341.28010160001577,,1,1,784320,001,2022-09-09_07h31.09.386,untitled_1,2022.2.4,60.00438031819,
cont,0.05,"(0.01, 0.01, 0.005, 0.005)",1,0,0,138,137,down,0.01,db,0.042704142370926894,0.00042249998659826815,343.5633288999961,343.5633288999961,343.8634704000142,1,1,784320,001,2022-09-09_07h31.09.386,untitled_1,2022.2.4,60.00438031819,
cont,0.05,"(0.01, 0.01, 0.005, 0.005)",1,0,0,139,138,down,0.01,db,0.042655005700879135,0.0007311000081244856,345.91575620000367,345.91575620000367,,1,1,784320,001,2022-09-09_07h31.09.386,untitled_1,2022.2.4,60.00438031819,
cont,0.05,"(0.01, 0.01, 0.005, 0.005)",1,0,0,140,139,down,0.01,db,0.04260592556896116,0.0007297999982256442,348.1964200999937,348.1964200999937,,1,1,784320,001,2022-09-09_07h31.09.386,untitled_1,2022.2.4,60.00438031819,
cont,0.05,"(0.01, 0.01, 0.005, 0.005)",1,0,0,141,140,down,0.01,db,0.04255690191011849,0.0007243000145535916,350.46282740001334,350.46282740001334,350.76291140000103,1,1,784320,001,2022-09-09_07h31.09.386,untitled_1,2022.2.4,60.00438031819,
cont,0.05,"(0.01, 0.01, 0.005, 0.005)",1,0,0,142,141,down,0.01,db,0.0425079346593715,0.0007625000143889338,352.89605710000615,352.89605710000615,353.1962116000068,1,1,784320,001,2022-09-09_07h31.09.386,untitled_1,2022.2.4,60.00438031819,
cont,0.05,"(0.01, 0.01, 0.005, 0.005)",1,0,0,143,142,down,0.01,db,0.04245902375181535,0.0007208999886643142,355.2627618999977,355.2627618999977,355.56254800001625,1,1,784320,001,2022-09-09_07h31.09.386,untitled_1,2022.2.4,60.00438031819,
cont,0.05,"(0.01, 0.01, 0.005, 0.005)",1,0,0,144,143,down,0.01,db,0.04241016912261987,0.0007196000078693032,357.57920400000876,357.57920400000876,357.87908720000996,1,1,784320,001,2022-09-09_07h31.09.386,untitled_1,2022.2.4,60.00438031819,
cont,0.05,"(0.01, 0.01, 0.005, 0.005)",1,0,0,145,144,down,0.01,db,0.04236137070702948,0.0009931000240612775,359.8956776999985,359.8956776999985,360.1955402000167,1,1,784320,001,2022-09-09_07h31.09.386,untitled_1,2022.2.4,60.00438031819,
cont,0.05,"(0.01, 0.01, 0.005, 0.005)",1,0,0,146,145,down,0.01,db,0.04231262844036312,0.0007167999865487218,362.2954214999918,362.2954214999918,362.59549269999843,1,1,784320,001,2022-09-09_07h31.09.386,untitled_1,2022.2.4,60.00438031819,
cont,0.05,"(0.01, 0.01, 0.005, 0.005)",1,0,0,147,146,down,0.01,db,0.04226394225801415,0.0011800999927800149,364.6118894999963,364.6118894999963,364.9119250999938,1,1,784320,001,2022-09-09_07h31.09.386,untitled_1,2022.2.4,60.00438031819,
cont,0.05,"(0.01, 0.01, 0.005, 0.005)",1,0,0,148,147,down,0.01,db,0.042215312095450264,0.00060299999313429,367.0785331999941,367.0785331999941,367.37842510000337,1,1,784320,001,2022-09-09_07h31.09.386,untitled_1,2022.2.4,60.00438031819,
cont,0.05,"(0.01, 0.01, 0.005, 0.005)",1,0,0,149,148,down,0.01,db,0.042166737888213415,0.0007238000107463449,369.42873139999574,369.42873139999574,369.72828030001256,1,1,784320,001,2022-09-09_07h31.09.386,untitled_1,2022.2.4,60.00438031819,
cont,0.05,"(0.01, 0.01, 0.005, 0.005)",1,0,0,150,149,down,0.01,db,0.042118219571919725,0.0007275000098161399,371.7281265000056,371.7281265000056,372.0282547000097,1,1,784320,001,2022-09-09_07h31.09.386,untitled_1,2022.2.4,60.00438031819,
cont,0.05,"(0.01, 0.01, 0.005, 0.005)",1,0,0,151,150,down,0.01,db,0.04206975708225939,0.0007142999966163188,374.0279043999908,374.0279043999908,374.3278735000058,1,1,784320,001,2022-09-09_07h31.09.386,untitled_1,2022.2.4,60.00438031819,
cont,0.05,"(0.01, 0.01, 0.005, 0.005)",1,0,0,152,151,down,0.01,db,0.042021350354996614,0.0007317999843508005,376.37786680000136,376.37786680000136,376.6778836000012,1,1,784320,001,2022-09-09_07h31.09.386,untitled_1,2022.2.4,60.00438031819,
cont,0.05,"(0.01, 0.01, 0.005, 0.005)",1,0,0,153,152,down,0.01,db,0.041972999325969505,0.0007238999824039638,378.6942546000064,378.6942546000064,,1,1,784320,001,2022-09-09_07h31.09.386,untitled_1,2022.2.4,60.00438031819,
cont,0.05,"(0.01, 0.01, 0.005, 0.005)",1,0,0,154,153,down,0.01,db,0.04192470393108999,0.0007163000118453056,380.9607151999953,380.9607151999953,381.2607423000154,1,1,784320,001,2022-09-09_07h31.09.386,untitled_1,2022.2.4,60.00438031819,
cont,0.05,"(0.01, 0.01, 0.005, 0.005)",1,0,0,155,154,down,0.01,db,0.041876464106343755,0.0006317000079434365,383.7271430999972,383.7271430999972,,1,1,784320,001,2022-09-09_07h31.09.386,untitled_1,2022.2.4,60.00438031819,
cont,0.05,"(0.01, 0.01, 0.005, 0.005)",1,0,0,156,155,down,0.01,db,0.04182827978779013,0.0006288000149652362,385.9941905000014,385.9941905000014,386.29375850001816,1,1,784320,001,2022-09-09_07h31.09.386,untitled_1,2022.2.4,60.00438031819,
cont,0.05,"(0.01, 0.01, 0.005, 0.005)",1,0,0,157,156,down,0.01,db,0.04178015091156202,0.0008673999982420355,388.5101866000041,388.5101866000041,388.8101422000036,1,1,784320,001,2022-09-09_07h31.09.386,untitled_1,2022.2.4,60.00438031819,
cont,0.05,"(0.01, 0.01, 0.005, 0.005)",1,0,0,158,157,down,0.01,db,0.04173207741386582,0.0006353000062517822,390.9101043000119,390.9101043000119,391.2099949000112,1,1,784320,001,2022-09-09_07h31.09.386,untitled_1,2022.2.4,60.00438031819,
cont,0.05,"(0.01, 0.01, 0.005, 0.005)",1,0,0,159,158,down,0.01,db,0.041684059230981334,0.0006404000159818679,393.22668190000695,393.22668190000695,393.5263407000166,1,1,784320,001,2022-09-09_07h31.09.386,untitled_1,2022.2.4,60.00438031819,
cont,0.05,"(0.01, 0.01, 0.005, 0.005)",1,0,0,160,159,down,0.01,db,0.04163609629926166,0.0007141999958548695,395.59311439999146,395.59311439999146,395.893301300006,1,1,784320,001,2022-09-09_07h31.09.386,untitled_1,2022.2.4,60.00438031819,
cont,0.05,"(0.01, 0.01, 0.005, 0.005)",1,0,0,161,160,down,0.01,db,0.04158818855513316,0.0008139999990817159,397.9762738000136,397.9762738000136,398.2763888000045,1,1,784320,001,2022-09-09_07h31.09.386,untitled_1,2022.2.4,60.00438031819,
cont,0.05,"(0.01, 0.01, 0.005, 0.005)",1,0,0,162,161,down,0.01,db,0.041540335935095325,0.0007187000010162592,400.42623539999477,400.42623539999477,,1,1,784320,001,2022-09-09_07h31.09.386,untitled_1,2022.2.4,60.00438031819,
cont,0.05,"(0.01, 0.01, 0.005, 0.005)",1,0,0,163,162,down,0.01,db,0.04149253837572073,0.0007247999892570078,402.6758031999925,402.6758031999925,402.9758667999995,1,1,784320,001,2022-09-09_07h31.09.386,untitled_1,2022.2.4,60.00438031819,
cont,0.05,"(0.01, 0.01, 0.005, 0.005)",1,0,0,164,163,down,0.01,db,0.04144479581365491,0.0007196000078693032,405.1091260999965,405.1091260999965,405.4091646000161,1,1,784320,001,2022-09-09_07h31.09.386,untitled_1,2022.2.4,60.00438031819,
cont,0.05,"(0.01, 0.01, 0.005, 0.005)",1,0,0,165,164,down,0.01,db,0.04139710818561631,0.0007289000204764307,407.4422898000048,407.4422898000048,407.74249989999225,1,1,784320,001,2022-09-09_07h31.09.386,untitled_1,2022.2.4,60.00438031819,
cont,0.05,"(0.01, 0.01, 0.005, 0.005)",1,0,0,166,165,down,0.01,db,0.04134947542839619,0.000729600025806576,409.8587637000019,409.8587637000019,410.1587600999919,1,1,784320,001,2022-09-09_07h31.09.386,untitled_1,2022.2.4,60.00438031819,
cont,0.05,"(0.01, 0.01, 0.005, 0.005)",1,0,0,167,166,down,0.01,db,0.04130189747885853,0.0007139999943319708,412.15878379999776,412.15878379999776,412.45854260001215,1,1,784320,001,2022-09-09_07h31.09.386,untitled_1,2022.2.4,60.00438031819,
cont,0.05,"(0.01, 0.01, 0.005, 0.005)",1,0,0,168,167,down,0.01,db,0.04125437427393997,0.0007236000092234462,414.52501460001804,414.52501460001804,414.8253240000049,1,1,784320,001,2022-09-09_07h31.09.386,untitled_1,2022.2.4,60.00438031819,
cont,0.05,"(0.01, 0.01, 0.005, 0.005)",1,0,0,169,168,down,0.01,db,0.041206905750649704,0.0007162999827414751,416.92549590001,416.92549590001,417.2248510000063,1,1,784320,001,2022-09-09_07h31.09.386,untitled_1,2022.2.4,60.00438031819,
cont,0.05,"(0.01, 0.01, 0.005, 0.005)",1,0,0,170,169,down,0.01,db,0.04115949184606941,0.0007163000118453056,419.2581546000147,419.2581546000147,419.5581189999939,1,1,784320,001,2022-09-09_07h31.09.386,untitled_1,2022.2.4,60.00438031819,
cont,0.05,"(0.01, 0.01, 0.005, 0.005)",1,0,0,171,170,down,0.01,db,0.04111213249735315,0.0007271000067703426,421.6248378000164,421.6248378000164,421.9246131000109,1,1,784320,001,2022-09-09_07h31.09.386,untitled_1,2022.2.4,60.00438031819,
cont,0.05,"(0.01, 0.01, 0.005, 0.005)",1,0,0,172,171,down,0.01,db,0.04106482764172731,0.0007133999897632748,423.95773329999065,423.95773329999065,424.25765169999795,1,1,784320,001,2022-09-09_07h31.09.386,untitled_1,2022.2.4,60.00438031819,
cont,0.05,"(0.01, 0.01, 0.005, 0.005)",1,0,0,173,172,down,0.01,db,0.0410175772164905,0.000614099990343675,426.357634999993,426.357634999993,426.65754939999897,1,1,784320,001,2022-09-09_07h31.09.386,untitled_1,2022.2.4,60.00438031819,
cont,0.05,"(0.01, 0.01, 0.005, 0.005)",1,0,0,174,173,down,0.01,db,0.04097038115901348,0.0007363999902736396,428.75732699999935,428.75732699999935,429.0574007999967,1,1,784320,001,2022-09-09_07h31.09.386,untitled_1,2022.2.4,60.00438031819,
cont,0.05,"(0.01, 0.01, 0.005, 0.005)",1,0,0,175,174,down,0.01,db,0.04092323940673908,0.0006326999864540994,431.17389969999203,431.17389969999203,431.4738404999953,1,1,784320,001,2022-09-09_07h31.09.386,untitled_1,2022.2.4,60.00438031819,
cont,0.05,"(0.01, 0.01, 0.005, 0.005)",1,0,0,176,175,down,0.01,db,0.040876151897182085,0.0007208000170066953,433.47392150000087,433.47392150000087,433.7737152999907,1,1,784320,001,2022-09-09_07h31.09.386,untitled_1,2022.2.4,60.00438031819,
cont,0.05,"(0.01, 0.01, 0.005, 0.005)",1,0,0,177,176,down,0.01,db,0.0408291185679292,0.0007258999976329505,436.0906748000125,436.0906748000125,,1,1,784320,001,2022-09-09_07h31.09.386,untitled_1,2022.2.4,60.00438031819,
cont,0.05,"(0.01, 0.01, 0.005, 0.005)",1,0,0,178,177,down,0.01,db,0.04078213935663894,0.0007244999869726598,438.32345120000537,438.32345120000537,438.6233246999909,1,1,784320,001,2022-09-09_07h31.09.386,untitled_1,2022.2.4,60.00438031819,
cont,0.05,"(0.01, 0.01, 0.005, 0.005)",1,0,0,179,178,down,0.01,db,0.04073521420104156,0.0007148000004235655,440.9066265000147,440.9066265000147,441.2066812000121,1,1,784320,001,2022-09-09_07h31.09.386,untitled_1,2022.2.4,60.00438031819,
cont,0.05,"(0.01, 0.01, 0.005, 0.005)",1,0,0,180,179,down,0.01,db,0.04068834303893894,0.000738900009309873,443.22309720001067,443.22309720001067,443.5231175000081,1,1,784320,001,2022-09-09_07h31.09.386,untitled_1,2022.2.4,60.00438031819,
cont,0.05,"(0.01, 0.01, 0.005, 0.005)",1,0,0,181,180,down,0.01,db,0.04064152580820454,0.0007191999757196754,445.6562224999943,445.6562224999943,445.9562276999932,1,1,784320,001,2022-09-09_07h31.09.386,untitled_1,2022.2.4,60.00438031819,
cont,0.05,"(0.01, 0.01, 0.005, 0.005)",1,0,0,182,181,down,0.01,db,0.04059476244678332,0.0007474999874830246,448.0561997000186,448.0561997000186,448.3560970000108,1,1,784320,001,2022-09-09_07h31.09.386,untitled_1,2022.2.4,60.00438031819,
cont,0.05,"(0.01, 0.01, 0.005, 0.005)",1,0,0,183,182,down,0.01,db,0.040548052892691616,0.0007061999931465834,450.405894800002,450.405894800002,450.70600239999476,1,1,784320,001,2022-09-09_07h31.09.386,untitled_1,2022.2.4,60.00438031819,
cont,0.05,"(0.01, 0.01, 0.005, 0.005)",1,0,0,184,183,down,0.01,db,0.0405013970840171,0.0007322000165004283,452.73908970001503,452.73908970001503,453.0390379000164,1,1,784320,001,2022-09-09_07h31.09.386,untitled_1,2022.2.4,60.00438031819,
cont,0.05,"(0.01, 0.01, 0.005, 0.005)",1,0,0,185,184,down,0.01,db,0.04045479495891868,0.0007184999994933605,455.10565000001225,455.10565000001225,455.4056700000074,1,1,784320,001,2022-09-09_07h31.09.386,untitled_1,2022.2.4,60.00438031819,
cont,0.05,"(0.01, 0.01, 0.005, 0.005)",1,0,0,186,185,down,0.01,db,0.04040824645562643,0.0007261999999172986,457.4220314999984,457.4220314999984,457.7221080000163,1,1,784320,001,2022-09-09_07h31.09.386,untitled_1,2022.2.4,60.00438031819,
cont,0.05,"(0.01, 0.01, 0.005, 0.005)",1,0,0,187,186,down,0.01,db,0.04036175151244147,0.0007204999856185168,459.93866909999633,459.93866909999633,460.23857560000033,1,1,784320,001,2022-09-09_07h31.09.386,untitled_1,2022.2.4,60.00438031819,
cont,0.05,"(0.01, 0.01, 0.005, 0.005)",1,0,0,188,187,down,0.01,db,0.04031531006773595,0.0007335999980568886,462.23853390000295,462.23853390000295,462.5385224999918,1,1,784320,001,2022-09-09_07h31.09.386,untitled_1,2022.2.4,60.00438031819,
cont,0.05,"(0.01, 0.01, 0.005, 0.005)",1,0,0,189,188,down,0.01,db,0.040268922059952895,0.0007240000122692436,464.58851820000564,464.58851820000564,,1,1,784320,001,2022-09-09_07h31.09.386,untitled_1,2022.2.4,60.00438031819,
cont,0.05,"(0.01, 0.01, 0.005, 0.005)",1,0,0,190,189,down,0.01,db,0.040222587427606184,0.0007211999909486622,466.8213034000073,466.8213034000073,,0,0,784320,001,2022-09-09_07h31.09.386,untitled_1,2022.2.4,60.00438031819,
cont,0.05,"(0.01, 0.01, 0.005, 0.005)",1,0,0,191,190,up,0.01,db,0.040268922059952895,0.0007324999896809459,468.9713158000086,468.9713158000086,469.271181100019,1,1,784320,001,2022-09-09_07h31.09.386,untitled_1,2022.2.4,60.00438031819,
cont,0.05,"(0.01, 0.01, 0.005, 0.005)",1,0,0,192,191,up,0.01,db,0.040268922059952895,0.0008499000105075538,471.33769179999945,471.33769179999945,471.63762029999634,1,1,784320,001,2022-09-09_07h31.09.386,untitled_1,2022.2.4,60.00438031819,
cont,0.05,"(0.01, 0.01, 0.005, 0.005)",1,0,0,193,192,up,0.01,db,0.040268922059952895,0.0006244000105652958,473.6376508999965,473.6376508999965,473.93757100001676,1,1,784320,001,2022-09-09_07h31.09.386,untitled_1,2022.2.4,60.00438031819,
cont,0.05,"(0.01, 0.01, 0.005, 0.005)",1,0,0,194,193,down,0.005,db,0.04024574807569012,0.0007176999934017658,475.93750739999814,475.93750739999814,476.23751890001586,1,1,784320,001,2022-09-09_07h31.09.386,untitled_1,2022.2.4,60.00438031819,
cont,0.05,"(0.01, 0.01, 0.005, 0.005)",1,0,0,195,194,down,0.005,db,0.04024574807569012,0.0007308000058401376,478.3539238999947,478.3539238999947,478.65412190000643,1,1,784320,001,2022-09-09_07h31.09.386,untitled_1,2022.2.4,60.00438031819,
cont,0.05,"(0.01, 0.01, 0.005, 0.005)",1,0,0,196,195,down,0.005,db,0.04024574807569012,0.0007231999770738184,480.75376930000493,480.75376930000493,481.0538932000054,1,1,784320,001,2022-09-09_07h31.09.386,untitled_1,2022.2.4,60.00438031819,
cont,0.05,"(0.01, 0.01, 0.005, 0.005)",1,0,0,197,196,down,0.005,db,0.04022258742760619,0.001049900020007044,483.10353100000066,483.10353100000066,483.4035739999963,1,1,784320,001,2022-09-09_07h31.09.386,untitled_1,2022.2.4,60.00438031819,
cont,0.05,"(0.01, 0.01, 0.005, 0.005)",1,0,0,198,197,down,0.005,db,0.04022258742760619,0.0006355999794322997,485.52020120000816,485.52020120000816,485.820103200007,1,1,784320,001,2022-09-09_07h31.09.386,untitled_1,2022.2.4,60.00438031819,
cont,0.05,"(0.01, 0.01, 0.005, 0.005)",1,0,0,199,198,down,0.005,db,0.04022258742760619,0.0007316000119317323,487.95315750001464,487.95315750001464,488.2531103999936,1,1,784320,001,2022-09-09_07h31.09.386,untitled_1,2022.2.4,60.00438031819,
cont,0.05,"(0.01, 0.01, 0.005, 0.005)",1,0,0,200,199,down,0.005,db,0.040199440108026396,0.0006399999838322401,490.3034128000145,490.3034128000145,490.6035291000153,1,1,784320,001,2022-09-09_07h31.09.386,untitled_1,2022.2.4,60.00438031819,
cont,0.05,"(0.01, 0.01, 0.005, 0.005)",1,0,0,201,200,down,0.005,db,0.040199440108026396,0.0007191000040620565,492.6529045999923,492.6529045999923,,1,1,784320,001,2022-09-09_07h31.09.386,untitled_1,2022.2.4,60.00438031819,
cont,0.05,"(0.01, 0.01, 0.005, 0.005)",1,0,0,202,201,down,0.005,db,0.040199440108026396,0.0006281000096350908,494.9360081999912,494.9360081999912,495.2361106000026,1,1,784320,001,2022-09-09_07h31.09.386,untitled_1,2022.2.4,60.00438031819,
cont,0.05,"(0.01, 0.01, 0.005, 0.005)",1,0,0,203,202,down,0.005,db,0.04017630610928044,0.0007308000058401376,497.28592970001046,497.28592970001046,497.5860893999925,1,1,784320,001,2022-09-09_07h31.09.386,untitled_1,2022.2.4,60.00438031819,
cont,0.05,"(0.01, 0.01, 0.005, 0.005)",1,0,0,204,203,down,0.005,db,0.04017630610928044,0.0007189000025391579,499.6690588000056,499.6690588000056,499.9694797999982,1,1,784320,001,2022-09-09_07h31.09.386,untitled_1,2022.2.4,60.00438031819,
cont,0.05,"(0.01, 0.01, 0.005, 0.005)",1,0,0,205,204,down,0.005,db,0.04017630610928044,0.0007351000094786286,501.98538050000207,501.98538050000207,502.2856255999941,1,1,784320,001,2022-09-09_07h31.09.386,untitled_1,2022.2.4,60.00438031819,
cont,0.05,"(0.01, 0.01, 0.005, 0.005)",1,0,0,206,205,down,0.005,db,0.04015318542370244,0.0007365999917965382,504.36876410001423,504.36876410001423,504.6687869000016,1,1,784320,001,2022-09-09_07h31.09.386,untitled_1,2022.2.4,60.00438031819,
cont,0.05,"(0.01, 0.01, 0.005, 0.005)",1,0,0,207,206,down,0.005,db,0.04015318542370244,0.0007388999802060425,506.7019858999993,506.7019858999993,507.0019968000124,1,1,784320,001,2022-09-09_07h31.09.386,untitled_1,2022.2.4,60.00438031819,
cont,0.05,"(0.01, 0.01, 0.005, 0.005)",1,0,0,208,207,down,0.005,db,0.04015318542370244,0.0007208999886643142,509.03500319999876,509.03500319999876,509.33503780001774,1,1,784320,001,2022-09-09_07h31.09.386,untitled_1,2022.2.4,60.00438031819,
cont,0.05,"(0.01, 0.01, 0.005, 0.005)",1,0,0,209,208,down,0.005,db,0.04013007804363093,0.0006314000056590885,511.35168039999553,511.35168039999553,511.6519104000181,1,1,784320,001,2022-09-09_07h31.09.386,untitled_1,2022.2.4,60.00438031819,
cont,0.05,"(0.01, 0.01, 0.005, 0.005)",1,0,0,210,209,down,0.005,db,0.04013007804363093,0.002039399987552315,513.884757199994,513.884757199994,514.1847549999948,0,0,784320,001,2022-09-09_07h31.09.386,untitled_1,2022.2.4,60.00438031819,
cont,0.05,"(0.01, 0.01, 0.005, 0.005)",1,0,0,211,210,up,0.005,db,0.04015318542370244,0.0006292000180110335,516.3013487000135,516.3013487000135,516.6012963000103,1,1,784320,001,2022-09-09_07h31.09.386,untitled_1,2022.2.4,60.00438031819,
cont,0.05,"(0.01, 0.01, 0.005, 0.005)",1,0,0,212,211,up,0.005,db,0.04015318542370244,0.0007215000223368406,518.6539011000132,518.6539011000132,518.9677722000051,1,1,784320,001,2022-09-09_07h31.09.386,untitled_1,2022.2.4,60.00438031819,
cont,0.05,"(0.01, 0.01, 0.005, 0.005)",1,0,0,213,212,up,0.005,db,0.04015318542370244,0.0007253999938257039,521.0509445999924,521.0509445999924,521.3509695999965,1,1,784320,001,2022-09-09_07h31.09.386,untitled_1,2022.2.4,60.00438031819,
